tim[a]      d18O[permil]
     0.000     -2.088
 -1000.000     -2.036
 -2000.000     -1.909
 -3000.000     -1.764
 -4000.000     -1.738
 -5000.000     -1.782
 -6000.000     -1.445
 -7000.000     -1.247
 -8000.000     -1.016
 -9000.000     -0.747
-10000.000     -0.434
-11000.000     -0.083
-12000.000      0.288
-13000.000      0.656
-14000.000      1.003
-15000.000      1.311
-16000.000      1.557
-17000.000      1.719
-18000.000      1.795
-19000.000      1.806
-20000.000      1.778
-21000.000      1.722
-22000.000      1.636
-23000.000      1.516
-24000.000      1.379
-25000.000      1.250
-26000.000      1.149
-27000.000      1.077
-28000.000      1.025
-29000.000      0.989
-30000.000      0.967
-31000.000      0.954
-32000.000      0.946
-33000.000      0.943
-34000.000      0.946
-35000.000      0.954
-36000.000      0.962
-37000.000      0.959
-38000.000      0.937
-39000.000      0.898
-40000.000      0.852
-41000.000      0.809
-42000.000      0.767
-43000.000      0.723
-44000.000      0.675
-45000.000      0.630
-46000.000      0.596
-47000.000      0.574
-48000.000      0.555
-49000.000      0.530
-50000.000      0.491
-51000.000      0.440
-52000.000      0.392
-53000.000      0.367
-54000.000      0.370
-55000.000      0.388
-56000.000      0.413
-57000.000      0.449
-58000.000      0.506
-59000.000      0.586
-60000.000      0.683
-61000.000      0.786
-62000.000      0.880
-63000.000      0.951
-64000.000      0.988
-65000.000      0.979
-66000.000      0.919
-67000.000      0.808
-68000.000      0.650
-69000.000      0.449
-70000.000      0.219
-71000.000     -0.016
-72000.000     -0.227
-73000.000     -0.396
-74000.000     -0.519
-75000.000     -0.612
-76000.000     -0.698
-77000.000     -0.789
-78000.000     -0.880
-79000.000     -0.947
-80000.000     -0.961
-81000.000     -0.897
-82000.000     -0.764
-83000.000     -0.610
-84000.000     -0.496
-85000.000     -0.450
-86000.000     -0.451
-87000.000     -0.464
-88000.000     -0.470
-89000.000     -0.466
-90000.000     -0.465
-91000.000     -0.483
-92000.000     -0.534
-93000.000     -0.614
-94000.000     -0.699
-95000.000     -0.763
-96000.000     -0.806
-97000.000     -0.852
-98000.000     -0.909
-99000.000     -0.949
-100000.000     -0.942
-101000.000     -0.884
-102000.000     -0.807
-103000.000     -0.739
-104000.000     -0.689
-105000.000     -0.643
-106000.000     -0.592
-107000.000     -0.544
-108000.000     -0.511
-109000.000     -0.497
-110000.000     -0.515
-111000.000     -0.593
-112000.000     -0.749
-113000.000     -0.961
-114000.000     -1.182
-115000.000     -1.372
-116000.000     -1.517
-117000.000     -1.627
-118000.000     -1.730
-119000.000     -1.849
-120000.000     -1.976
-121000.000     -2.072
-122000.000     -2.099
-123000.000     -2.033
-124000.000     -1.859
-125000.000     -1.567
-126000.000     -1.174
-127000.000     -0.725
-128000.000     -0.276
-129000.000      0.134
-130000.000      0.493
-131000.000      0.796
-132000.000      1.035
-133000.000      1.206
-134000.000      1.310
-135000.000      1.353
-136000.000      1.344
-137000.000      1.310
-138000.000      1.287
-139000.000      1.293
-140000.000      1.316
-141000.000      1.331
-142000.000      1.323
-143000.000      1.295
-144000.000      1.262
-145000.000      1.247
-146000.000      1.269
-147000.000      1.328
-148000.000      1.410
-149000.000      1.494
-150000.000      1.560
-151000.000      1.587
-152000.000      1.567
-153000.000      1.513
-154000.000      1.448
-155000.000      1.377
-156000.000      1.292
-157000.000      1.188
-158000.000      1.075
-159000.000      0.961
-160000.000      0.846
-161000.000      0.726
-162000.000      0.607
-163000.000      0.497
-164000.000      0.404
-165000.000      0.324
-166000.000      0.254
-167000.000      0.196
-168000.000      0.154
-169000.000      0.128
-170000.000      0.113
-171000.000      0.110
-172000.000      0.122
-173000.000      0.145
-174000.000      0.176
-175000.000      0.216
-176000.000      0.275
-177000.000      0.362
-178000.000      0.472
-179000.000      0.590
-180000.000      0.700
-181000.000      0.781
-182000.000      0.808
-183000.000      0.753
-184000.000      0.602
-185000.000      0.375
-186000.000      0.108
-187000.000     -0.162
-188000.000     -0.417
-189000.000     -0.654
-190000.000     -0.878
-191000.000     -1.096
-192000.000     -1.303
-193000.000     -1.479
-194000.000     -1.596
-195000.000     -1.638
-196000.000     -1.610
-197000.000     -1.527
-198000.000     -1.411
-199000.000     -1.286
-200000.000     -1.173
-201000.000     -1.077
-202000.000     -0.996
-203000.000     -0.930
-204000.000     -0.884
-205000.000     -0.871
-206000.000     -0.891
-207000.000     -0.938
-208000.000     -0.995
-209000.000     -1.056
-210000.000     -1.116
-211000.000     -1.176
-212000.000     -1.234
-213000.000     -1.293
-214000.000     -1.347
-215000.000     -1.384
-216000.000     -1.386
-217000.000     -1.344
-218000.000     -1.264
-219000.000     -1.148
-220000.000     -1.000
-221000.000     -0.827
-222000.000     -0.645
-223000.000     -0.471
-224000.000     -0.312
-225000.000     -0.168
-226000.000     -0.038
-227000.000      0.059
-228000.000      0.098
-229000.000      0.064
-230000.000     -0.029
-231000.000     -0.160
-232000.000     -0.316
-233000.000     -0.492
-234000.000     -0.676
-235000.000     -0.854
-236000.000     -1.007
-237000.000     -1.116
-238000.000     -1.161
-239000.000     -1.129
-240000.000     -1.019
-241000.000     -0.852
-242000.000     -0.650
-243000.000     -0.430
-244000.000     -0.195
-245000.000      0.052
-246000.000      0.297
-247000.000      0.515
-248000.000      0.676
-249000.000      0.758
-250000.000      0.765
-251000.000      0.722
-252000.000      0.659
-253000.000      0.592
-254000.000      0.523
-255000.000      0.457
-256000.000      0.403
-257000.000      0.373
-258000.000      0.372
-259000.000      0.394
-260000.000      0.428
-261000.000      0.464
-262000.000      0.495
-263000.000      0.524
-264000.000      0.559
-265000.000      0.609
-266000.000      0.679
-267000.000      0.762
-268000.000      0.838
-269000.000      0.883
-270000.000      0.882
-271000.000      0.838
-272000.000      0.768
-273000.000      0.685
-274000.000      0.599
-275000.000      0.511
-276000.000      0.419
-277000.000      0.318
-278000.000      0.208
-279000.000      0.098
-280000.000     -0.006
-281000.000     -0.102
-282000.000     -0.192
-283000.000     -0.274
-284000.000     -0.348
-285000.000     -0.412
-286000.000     -0.460
-287000.000     -0.478
-288000.000     -0.453
-289000.000     -0.392
-290000.000     -0.310
-291000.000     -0.229
-292000.000     -0.158
-293000.000     -0.099
-294000.000     -0.053
-295000.000     -0.015
-296000.000      0.016
-297000.000      0.038
-298000.000      0.041
-299000.000      0.012
-300000.000     -0.059
-301000.000     -0.166
-302000.000     -0.299
-303000.000     -0.449
-304000.000     -0.608
-305000.000     -0.771
-306000.000     -0.930
-307000.000     -1.075
-308000.000     -1.196
-309000.000     -1.285
-310000.000     -1.331
-311000.000     -1.334
-312000.000     -1.301
-313000.000     -1.248
-314000.000     -1.188
-315000.000     -1.126
-316000.000     -1.064
-317000.000     -1.004
-318000.000     -0.952
-319000.000     -0.918
-320000.000     -0.919
-321000.000     -0.961
-322000.000     -1.037
-323000.000     -1.132
-324000.000     -1.236
-325000.000     -1.342
-326000.000     -1.449
-327000.000     -1.553
-328000.000     -1.649
-329000.000     -1.728
-330000.000     -1.776
-331000.000     -1.774
-332000.000     -1.708
-333000.000     -1.576
-334000.000     -1.385
-335000.000     -1.135
-336000.000     -0.820
-337000.000     -0.446
-338000.000     -0.035
-339000.000      0.372
-340000.000      0.723
-341000.000      0.969
-342000.000      1.090
-343000.000      1.106
-344000.000      1.064
-345000.000      1.002
-346000.000      0.941
-347000.000      0.894
-348000.000      0.865
-349000.000      0.856
-350000.000      0.860
-351000.000      0.871
-352000.000      0.879
-353000.000      0.876
-354000.000      0.854
-355000.000      0.807
-356000.000      0.734
-357000.000      0.640
-358000.000      0.531
-359000.000      0.411
-360000.000      0.283
-361000.000      0.155
-362000.000      0.035
-363000.000     -0.075
-364000.000     -0.180
-365000.000     -0.282
-366000.000     -0.379
-367000.000     -0.454
-368000.000     -0.489
-369000.000     -0.477
-370000.000     -0.425
-371000.000     -0.345
-372000.000     -0.251
-373000.000     -0.155
-374000.000     -0.077
-375000.000     -0.037
-376000.000     -0.042
-377000.000     -0.086
-378000.000     -0.152
-379000.000     -0.227
-380000.000     -0.303
-381000.000     -0.380
-382000.000     -0.457
-383000.000     -0.532
-384000.000     -0.605
-385000.000     -0.670
-386000.000     -0.726
-387000.000     -0.773
-388000.000     -0.816
-389000.000     -0.857
-390000.000     -0.898
-391000.000     -0.938
-392000.000     -0.979
-393000.000     -1.022
-394000.000     -1.069
-395000.000     -1.125
-396000.000     -1.191
-397000.000     -1.266
-398000.000     -1.345
-399000.000     -1.427
-400000.000     -1.507
-401000.000     -1.584
-402000.000     -1.655
-403000.000     -1.717
-404000.000     -1.762
-405000.000     -1.778
-406000.000     -1.759
-407000.000     -1.708
-408000.000     -1.635
-409000.000     -1.549
-410000.000     -1.457
-411000.000     -1.363
-412000.000     -1.268
-413000.000     -1.174
-414000.000     -1.081
-415000.000     -0.994
-416000.000     -0.917
-417000.000     -0.851
-418000.000     -0.795
-419000.000     -0.740
-420000.000     -0.679
-421000.000     -0.608
-422000.000     -0.525
-423000.000     -0.433
-424000.000     -0.334
-425000.000     -0.222
-426000.000     -0.091
-427000.000      0.067
-428000.000      0.254
-429000.000      0.465
-430000.000      0.696
-431000.000      0.935
-432000.000      1.165
-433000.000      1.356
-434000.000      1.478
-435000.000      1.516
-436000.000      1.487
-437000.000      1.420
-438000.000      1.343
-439000.000      1.266
-440000.000      1.192
-441000.000      1.121
-442000.000      1.059
-443000.000      1.009
-444000.000      0.977
-445000.000      0.958
-446000.000      0.947
-447000.000      0.940
-448000.000      0.933
-449000.000      0.924
-450000.000      0.911
-451000.000      0.892
-452000.000      0.865
-453000.000      0.831
-454000.000      0.794
-455000.000      0.755
-456000.000      0.715
-457000.000      0.676
-458000.000      0.638
-459000.000      0.604
-460000.000      0.584
-461000.000      0.585
-462000.000      0.614
-463000.000      0.665
-464000.000      0.729
-465000.000      0.798
-466000.000      0.868
-467000.000      0.937
-468000.000      1.003
-469000.000      1.054
-470000.000      1.066
-471000.000      1.008
-472000.000      0.869
-473000.000      0.669
-474000.000      0.447
-475000.000      0.232
-476000.000      0.033
-477000.000     -0.156
-478000.000     -0.345
-479000.000     -0.530
-480000.000     -0.690
-481000.000     -0.801
-482000.000     -0.849
-483000.000     -0.848
-484000.000     -0.826
-485000.000     -0.806
-486000.000     -0.792
-487000.000     -0.779
-488000.000     -0.761
-489000.000     -0.736
-490000.000     -0.709
-491000.000     -0.689
-492000.000     -0.679
-493000.000     -0.679
-494000.000     -0.688
-495000.000     -0.707
-496000.000     -0.738
-497000.000     -0.777
-498000.000     -0.821
-499000.000     -0.866
-500000.000     -0.901
-501000.000     -0.912
-502000.000     -0.880
-503000.000     -0.796
-504000.000     -0.670
-505000.000     -0.521
-506000.000     -0.366
-507000.000     -0.216
-508000.000     -0.076
-509000.000      0.053
-510000.000      0.173
-511000.000      0.278
-512000.000      0.352
-513000.000      0.374
-514000.000      0.337
-515000.000      0.254
-516000.000      0.150
-517000.000      0.052
-518000.000     -0.030
-519000.000     -0.095
-520000.000     -0.153
-521000.000     -0.222
-522000.000     -0.308
-523000.000     -0.391
-524000.000     -0.437
-525000.000     -0.425
-526000.000     -0.360
-527000.000     -0.267
-528000.000     -0.168
-529000.000     -0.073
-530000.000      0.015
-531000.000      0.095
-532000.000      0.171
-533000.000      0.252
-534000.000      0.349
-535000.000      0.469
-536000.000      0.600
-537000.000      0.713
-538000.000      0.775
-539000.000      0.772
-540000.000      0.714
-541000.000      0.629
-542000.000      0.542
-543000.000      0.465
-544000.000      0.400
-545000.000      0.348
-546000.000      0.307
-547000.000      0.279
-548000.000      0.261
-549000.000      0.250
-550000.000      0.244
-551000.000      0.247
-552000.000      0.264
-553000.000      0.297
-554000.000      0.341
-555000.000      0.384
-556000.000      0.420
-557000.000      0.455
-558000.000      0.497
-559000.000      0.560
-560000.000      0.642
-561000.000      0.726
-562000.000      0.774
-563000.000      0.748
-564000.000      0.642
-565000.000      0.490
-566000.000      0.338
-567000.000      0.202
-568000.000      0.069
-569000.000     -0.087
-570000.000     -0.272
-571000.000     -0.475
-572000.000     -0.669
-573000.000     -0.824
-574000.000     -0.920
-575000.000     -0.949
-576000.000     -0.923
-577000.000     -0.858
-578000.000     -0.764
-579000.000     -0.646
-580000.000     -0.512
-581000.000     -0.368
-582000.000     -0.224
-583000.000     -0.089
-584000.000      0.021
-585000.000      0.087
-586000.000      0.099
-587000.000      0.060
-588000.000     -0.017
-589000.000     -0.123
-590000.000     -0.249
-591000.000     -0.381
-592000.000     -0.501
-593000.000     -0.596
-594000.000     -0.661
-595000.000     -0.696
-596000.000     -0.704
-597000.000     -0.686
-598000.000     -0.653
-599000.000     -0.613
-600000.000     -0.575
-601000.000     -0.532
-602000.000     -0.467
-603000.000     -0.365
-604000.000     -0.220
-605000.000     -0.054
-606000.000      0.089
-607000.000      0.157
-608000.000      0.126
-609000.000      0.009
-610000.000     -0.156
-611000.000     -0.335
-612000.000     -0.507
-613000.000     -0.659
-614000.000     -0.781
-615000.000     -0.862
-616000.000     -0.878
-617000.000     -0.794
-618000.000     -0.592
-619000.000     -0.283
-620000.000      0.091
-621000.000      0.480
-622000.000      0.844
-623000.000      1.156
-624000.000      1.408
-625000.000      1.605
-626000.000      1.757
-627000.000      1.861
-628000.000      1.906
-629000.000      1.890
-630000.000      1.839
-631000.000      1.793
-632000.000      1.776
-633000.000      1.780
-634000.000      1.778
-635000.000      1.749
-636000.000      1.686
-637000.000      1.595
-638000.000      1.486
-639000.000      1.369
-640000.000      1.260
-641000.000      1.171
-642000.000      1.110
-643000.000      1.073
-644000.000      1.050
-645000.000      1.031
-646000.000      1.013
-647000.000      0.995
-648000.000      0.977
-649000.000      0.959
-650000.000      0.940
-651000.000      0.922
-652000.000      0.903
-653000.000      0.882
-654000.000      0.852
-655000.000      0.806
-656000.000      0.734
-657000.000      0.632
-658000.000      0.508
-659000.000      0.370
-660000.000      0.228
-661000.000      0.088
-662000.000     -0.042
-663000.000     -0.155
-664000.000     -0.247
-665000.000     -0.320
-666000.000     -0.374
-667000.000     -0.401
-668000.000     -0.387
-669000.000     -0.326
-670000.000     -0.229
-671000.000     -0.121
-672000.000     -0.023
-673000.000      0.053
-674000.000      0.108
-675000.000      0.147
-676000.000      0.178
-677000.000      0.207
-678000.000      0.233
-679000.000      0.250
-680000.000      0.253
-681000.000      0.237
-682000.000      0.206
-683000.000      0.163
-684000.000      0.112
-685000.000      0.053
-686000.000     -0.013
-687000.000     -0.073
-688000.000     -0.098
-689000.000     -0.055
-690000.000      0.069
-691000.000      0.253
-692000.000      0.466
-693000.000      0.693
-694000.000      0.925
-695000.000      1.141
-696000.000      1.301
-697000.000      1.381
-698000.000      1.398
-699000.000      1.403
-700000.000      1.420
-701000.000      1.414
-702000.000      1.317
-703000.000      1.089
-704000.000      0.754
-705000.000      0.401
-706000.000      0.111
-707000.000     -0.082
-708000.000     -0.201
-709000.000     -0.273
-710000.000     -0.298
-711000.000     -0.258
-712000.000     -0.154
-713000.000     -0.024
-714000.000      0.081
-715000.000      0.136
-716000.000      0.154
-717000.000      0.164
-718000.000      0.186
-719000.000      0.220
-720000.000      0.248
-721000.000      0.246
-722000.000      0.207
-723000.000      0.147
-724000.000      0.075
-725000.000     -0.019
-726000.000     -0.147
-727000.000     -0.292
-728000.000     -0.420
-729000.000     -0.505
-730000.000     -0.538
-731000.000     -0.526
-732000.000     -0.489
-733000.000     -0.452
-734000.000     -0.412
-735000.000     -0.329
-736000.000     -0.159
-737000.000      0.095
-738000.000      0.388
-739000.000      0.665
-740000.000      0.893
-741000.000      1.062
-742000.000      1.174
-743000.000      1.231
-744000.000      1.239
-745000.000      1.216
-746000.000      1.185
-747000.000      1.160
-748000.000      1.145
-749000.000      1.142
-750000.000      1.153
-751000.000      1.180
-752000.000      1.229
-753000.000      1.304
-754000.000      1.392
-755000.000      1.455
-756000.000      1.448
-757000.000      1.348
-758000.000      1.171
-759000.000      0.963
-760000.000      0.757
-761000.000      0.571
-762000.000      0.413
-763000.000      0.283
-764000.000      0.182
-765000.000      0.103
-766000.000      0.035
-767000.000     -0.031
-768000.000     -0.097
-769000.000     -0.164
-770000.000     -0.232
-771000.000     -0.297
-772000.000     -0.354
-773000.000     -0.391
-774000.000     -0.392
-775000.000     -0.356
-776000.000     -0.302
-777000.000     -0.260
-778000.000     -0.201
-779000.000     -0.266
-780000.000     -0.330
-781000.000     -0.376
-782000.000     -0.422
